# Case 2 Radiance upper limit, uW cm-2 sr-1 um-1, 8 columns for 8 wavelengths in microns: 0.47, 0.49, 0.51, 0.54, 0.59, 0.69, 0.74, 0.79. 
1.00036e+03 1.68412e+03 2.98743e+03 4.19066e+03 5.10706e+03 4.54005e+03 4.56880e+03 3.43783e+03
1.15232e+03 2.04495e+03 3.39329e+03 4.58103e+03 5.58619e+03 4.91532e+03 4.81822e+03 3.62036e+03
1.35203e+03 2.40388e+03 3.84072e+03 5.09416e+03 6.21193e+03 5.19996e+03 5.08860e+03 3.81234e+03
1.59933e+03 2.70471e+03 4.34080e+03 5.68273e+03 6.87696e+03 5.48198e+03 5.44843e+03 4.01696e+03
1.82788e+03 3.00604e+03 4.79355e+03 6.35765e+03 7.50828e+03 5.80809e+03 5.82488e+03 4.25159e+03
2.04596e+03 3.33520e+03 5.24148e+03 6.98434e+03 8.15640e+03 6.16409e+03 6.24282e+03 4.51347e+03
2.26673e+03 3.66435e+03 5.69582e+03 7.64259e+03 8.86399e+03 6.56372e+03 6.64132e+03 4.77576e+03
2.52639e+03 4.03309e+03 6.19578e+03 8.46100e+03 9.63948e+03 7.01497e+03 7.05221e+03 5.03867e+03
2.81331e+03 4.39936e+03 6.70265e+03 9.30696e+03 1.02776e+04 7.46798e+03 7.52956e+03 5.30350e+03
3.10136e+03 4.74431e+03 7.23163e+03 1.00949e+04 1.09737e+04 7.94049e+03 7.98292e+03 5.57449e+03
3.39008e+03 5.08924e+03 7.76501e+03 1.09192e+04 1.17531e+04 8.41301e+03 8.34030e+03 5.84548e+03
3.64766e+03 5.43388e+03 8.32677e+03 1.17429e+04 1.22126e+04 8.87645e+03 8.69767e+03 6.11523e+03
3.89595e+03 5.77854e+03 8.85118e+03 1.25217e+04 1.27722e+04 9.32788e+03 9.03705e+03 6.38416e+03
4.14424e+03 6.12319e+03 9.27245e+03 1.30818e+04 1.36083e+04 9.77930e+03 9.36071e+03 6.65310e+03
4.39253e+03 6.50763e+03 9.69397e+03 1.35626e+04 1.40601e+04 1.01370e+04 9.67790e+03 6.82634e+03
4.65903e+03 6.89489e+03 1.01176e+04 1.41127e+04 1.44848e+04 1.04017e+04 9.93413e+03 6.99284e+03
4.92595e+03 7.26413e+03 1.05413e+04 1.46814e+04 1.49339e+04 1.06665e+04 1.01904e+04 7.15933e+03
1.18947e+04 1.63741e+04 1.92671e+04 2.41128e+04 2.26639e+04 1.56855e+04 1.42180e+04 1.03727e+04
1.92843e+04 2.34746e+04 2.67147e+04 3.13503e+04 2.76585e+04 1.86614e+04 1.62669e+04 1.16759e+04
